From IUPAC 2002 Dec edition
data of Meller and Moortgat, 2000
Absorption Cross Sections at 298 K, sigma(298 K), Averaged Over 1 nm Intervals Centered							
at the Cited Wavelength, l
Wavelengths are calibrated in air.			
ABSORPTION CROSS SECTION
	10^21 s/cm^2 !!!!						
l / nm	298 K						
226	0.179	0
227	0.169	0
228	0.177	0
229	0.19	0
230	0.205	0
231	0.166	0
232	0.335	0
233	0.262	0
234	0.325	0
235	0.363	0
236	0.54	0
237	0.77	0
238	0.569	0
239	0.681	0
240	0.782	0
241	0.775	0
242	1.227	0
243	1.591	0
244	1.096	0
245	1.313	0
246	1.634	0
247	1.511	0
248	2.338	0
249	3.178	0
250	2.572	0.203
251	2.039	0.177
252	3.366	-0.072
253	2.894	0.101
254	3.417	0.137
255	4.502	0.272
256	6.282	0.169
257	4.43	0.88
258	3.073	0.681
259	6.174	0.084
260	6.045	0.447
261	6.591	0.093
262	6.033	0.635
263	10.773	-0.813
264	9.465	0.58
265	5.305	1.004
266	5.387	0.431
267	13.604	-0.88
268	12.428	-0.12
269	9.908	1.116
270	9.626	0.784
271	19.409	-1.307
272	14.302	1
273	8.106	1.228
274	6.575	0.871
275	21.432	-2.733
276	25.842	-2.04
277	15.731	1.933
278	10.349	1.427
279	24.514	-2.547
280	23.375	-0.68
281	15.624	0.56
282	9.728	0.809
283	7.224	0.005
284	42.649	-8.72
285	40.504	-1.8
286	20.95	1.587
287	11.532	0.76
288	31.687	-4.707
289	32.245	-1.213
290	11.729	1.707
291	18.358	-1.16
292	7.973	1.155
293	31.281	-4.907
294	71.538	-10.213
295	40.535	3.827
296	24.739	2.12
297	13.672	1.387
298	42.166	-4.933
299	31.745	1.48
300	9.638	4.267
301	16.246	-2.573
302	8.537	-2.325
303	30.211	-3.6
304	72.185	-4.827
305	47.52	4.173
306	42.915	0.32
307	17.807	3.187
308	13.847	0.333
309	32.521	-3.867
310	17.369	2.36
311	4.623	0.075
312	11.88	-1.227
313	9.064	-1.439
314	56.366	0.72
315	55.65	2.587
316	25.608	4.76
317	57.77	-2.467
318	31.505	3.307
319	9.779	2.532
320	11.936	0.24
321	15.976	-2.187
322	7.216	0.149
323	3.281	0.389
324	8.584	-0.456
325	15.779	2.213
326	68.757	-5.64
327	43.702	5.44
328	12.201	5.067
329	31.2	-3.347
330	38.651	-2.173
331	14.121	3.907
332	3.474	1.792
333	2.135	0.429
334	1.587	-0.228
335	0.967	-0.005
336	1.261	0.325
337	3.825	0.329
338	19.188	1.6
339	53.814	-6.587
340	31.514	5.52
341	9.783	5.863
342	5.093	1.216
343	19.221	-2.987
344	12.684	0.187
345	4.369	2.765
346	1.19	0.541
347	0.441	-0.281
348	0.754	-0.664
349	0.379	-0.56
350	0.362	-0.728
351	0.893	-0.121
352	7.295	0.368
353	22.752	-5.32
354	16.449	0.6
355	6.964	2.456
356	1.483	-0.388
357	0.345	0
358	0.186	0
359	0.111	0
360	0.087	0
361	0.1	0
362	0.211	0
363	0.141	0
364	0.094	0
365	0.088	0
366	0.085	0
367	0.091	0
368	0.142	0
369	0.297	0
370	0.635	0
371	0.571	0
372	0.198	0
373	0.113	0
374	0.091	0
375	0.087	0

